Folder: deuterium_analysis/JinData (part 2)

File: Spectra_output_0_1736789543.txt
Wavelength [nm]    	Intensity [counts]
344.912	-1694.98
347.743   	376.57
350.574  	323.908
353.402 	253.904
356.229 	626.813
359.054  	338.964
361.878	860.34
364.7	630.009
367.52    	899.461
370.339	719.355
373.155	1517.98
375.97   	953.314
378.784 	836
381.596	642.787
384.405	830.707
387.214 	817.999
390.02  	964.919
392.825  	627.879
395.628 	865.629
398.429	362.608
401.228   	777.727
404.026    	953.314
406.822  	1099.7
409.616	454.854
412.408	145.869
415.198	149.116
417.987	942.761
420.773	393.746
423.558 	327.135
426.341 	420.563
429.122 	814.821
431.901  	444.143
434.679  	326.06
437.454	319.605
440.228	973.357
443 	794.689
445.769	1141.72
448.537	540.417
451.303	779.848
454.067  	1674.86
456.829	470.915
459.589	272.229
462.347	455.925
465.103  	-20.2502
467.858  	783.029
470.61  	555.366
473.36 	774.546
476.108	1181.59
478.854 	120.962
481.598 	188.052
484.341   	1337.58
487.081  	1096.54
489.819  	379.791
492.555 	400.184
495.289  	1297.86
498.021 	543.621
500.75  	437.714
503.478 	467.704
506.204	1030.26
508.927    	383.012
511.649   	392.673
514.368 	356.161
517.085 	864.572
519.8  	248.512
522.513  	430.211
525.224   	760.757
527.932 	531.871
530.639   	226.934
533.343  	902.631
536.045 	193.456
538.745     	896.291
541.443 	875.148
544.138  	826.471
546.832    	148.034
549.523 	450.57
552.211    	873.033
554.898  	478.408
557.582  	983.902
560.264 	712.981
562.944 	419.491
565.622   	891.006
568.297   	456.996
570.97  	627.879
573.641  	536.144
576.309 	699.167
578.975  	620.422
581.639 	675.776
584.3  	756.513
586.959    	530.803
589.616     	723.604
592.271  	825.412
594.923   	959.645
597.572      	709.794
600.22  	364.756
602.865   	563.906
605.507  	1022.89
608.147  	373.349
610.785  	720.417
613.42  	582.044
616.053 	140.457
618.683   	273.307
621.311   	403.403
623.937 	886.778
626.56 	348.639
629.18 	421.635
631.799   	556.434
634.414 	859.282
637.027       	1157.46
639.638  	543.621
642.246  	531.871
644.852   	727.852
647.455 	1389.8
650.055 	247.434
652.654 	276.539
655.249     	660.882
657.842  	755.452
660.432  	272.229
663.02    	793.63
665.605   	899.461
668.188  	670.457
670.768 	599.106
673.345  	177.242
675.92 	430.211
678.492  	166.428
681.062  	781.969
683.629  	-54.0351
686.193  	659.818
688.755   	268.996
691.314  	463.421
693.87   	728.914
696.423  	384.086
698.974   	129.628
701.523  	883.606
704.068   	521.186
706.611    	754.39
709.151  	875.148
711.688 	370.127
714.223   	924.814
716.755 	125.295
719.284   	718.293
721.81   	604.437
724.334  	688.537
726.855 	816.94
729.373 	348.639
731.888   	514.773
734.4      	384.086
736.91  	802.108
739.417  	762.878
741.921  	401.257
744.422  	298.08
746.92  	980.739
749.416   	968.084
751.908  	848.701
754.398  	461.28
756.885 	540.417
759.369   	-79.1298
761.85  	727.852
764.328         	534.008
766.803   	811.643
769.276 	656.625
771.745  	486.968
774.212  	706.606
776.675    	861.398
779.136   	733.161
781.594  	809.525
784.048    	466.633
786.5 	952.259
788.949 	516.911
791.395       	748.023
793.837  	-111.899
796.277   	40.6709
798.714 	432.355
801.148  	623.618
803.578  	385.159
806.006      	1061.84
808.43   	1102.85
810.852    	519.048
813.271     	445.214
815.686  	1254.95
818.098  	587.377
820.508   	868.802
822.914  	14.579
825.317  	746.962
827.717  	716.168
830.114   	475.197
832.507  	-18.072
834.898  	643.852
837.285 	735.285
839.669 	326.06
842.051 	334.663
844.429 	669.393
846.803  	616.16
849.175  	215.059
851.543 	425.924
853.908   	596.974
856.27  	769.243
858.629   	631.074
860.985  	790.45
863.337  	717.231
865.686    	477.337
868.032   	746.962
870.375    	584.177
872.714  	387.306
875.05     	636.399
877.382  	439.857
879.712     	379.791
882.038     	774.546
884.361    	474.127
886.68   	598.04
888.997    	582.044
891.309  	373.349
893.619  	530.803
895.925  	799.988
898.228    	393.746
900.527  	656.625
902.823   	409.839
905.116     	410.912
907.406   	500.873
909.692  	357.236
911.974  	222.617
914.253  	752.268
916.529    	831.766
918.801   	1093.39
921.07    	707.669
923.335   	632.139
925.597    	557.501
927.856  	521.186
930.111   	1078.67
932.362   	644.917
934.61   	303.463
936.855  	338.964
939.096      	1056.58
941.333  	704.481
943.567   	466.633
945.798   	587.377
948.025  	971.248
950.248  	787.27
952.468     	345.414
954.684    	309.921
956.897   	630.009
959.106  	902.631
961.311  	418.419
963.513   	476.267
965.712   	626.813
967.906   	291.62
970.098  	647.046
972.285  	1014.46
974.469   	207.5
976.649   	341.114
978.826  	656.625
980.999  	718.293
983.168       	1164.81
985.333    	167.51
987.495  	10.2279
989.654  	484.828
991.808    	203.179
993.959      	437.714
996.106  	302.387
998.249  	519.048
1000.39 	751.207
1002.53 	452.712
1004.66 	479.478
1006.79 	739.531
1008.91      	820.117
1011.03  	563.906
1013.15 	677.903
1015.26 	168.591
1017.37  	245.277
1019.48       	329.286
1021.58  	239.883
1023.68  	945.927
1025.77  	1156.41
1027.86  	632.139
1029.95 	418.419
1032.03    	1035.53
1034.11  	822.235
1036.18   	346.489
1038.26  	477.337
1040.32 	519.048
1042.39    	1260.19
1044.45  	504.082
1045.55 	1357.43

File: Spectra_output_0_1736790118.txt
Wavelength [nm]    	Intensity [counts]
344.912	-1792.43
347.743   	396.751
350.574  	338.749
353.402 	424.637
356.229 	571.162
359.054  	453.569
361.878	935.161
364.7	592.496
367.52    	757.361
370.339	685.134
373.155	1428.19
375.97   	944.661
378.784 	696.829
381.596	681.944
384.405	923.547
387.214 	789.178
390.02  	909.815
392.825  	483.544
395.628 	835.789
398.429	369.912
401.228   	706.394
404.026    	841.081
406.822  	1010.04
409.616	470.701
412.408	166.212
415.198	164.048
417.987	941.495
420.773	351.648
423.558 	325.845
426.341 	381.724
429.122 	907.703
431.901  	486.754
434.679  	366.69
437.454	251.532
440.228	935.161
443 	654.284
445.769	943.606
448.537	465.349
451.303	808.253
454.067  	1658.06
456.829	378.503
459.589	261.236
462.347	680.881
465.103  	119.662
467.858  	713.831
470.61  	518.834
473.36 	933.05
476.108	1090.02
478.854 	102.321
481.598 	355.947
484.341   	1276.72
487.081  	1088.97
489.819  	301.095
492.555 	438.571
495.289  	1295.55
498.021 	619.143
500.75  	329.071
503.478 	395.678
506.204	863.302
508.927    	302.171
511.649   	407.479
514.368 	432.141
517.085 	823.083
519.8  	224.56
522.513  	418.204
525.224   	687.261
527.932 	388.165
530.639   	352.723
533.343  	923.547
536.045 	348.424
538.745     	848.49
541.443 	863.302
544.138  	742.504
546.832    	353.797
549.523 	662.797
552.211    	947.827
554.898  	520.972
557.582  	860.129
560.264 	756.3
562.944 	531.657
565.622   	760.544
568.297   	406.407
570.97  	579.698
573.641  	423.565
576.309 	740.381
578.975  	477.123
581.639 	626.6
584.3  	612.75
586.959    	397.824
589.616     	667.053
592.271  	939.384
594.923   	939.384
597.572      	341.974
600.22  	437.499
602.865   	325.845
605.507  	1177.19
608.147  	331.222
610.785  	753.117
613.42  	738.258
616.053 	158.639
618.683   	294.635
621.311   	310.782
623.937 	805.075
626.56 	272.014
629.18 	358.096
631.799   	637.251
634.414 	879.166
637.027       	1244.27
639.638  	746.75
642.246  	368.838
644.852   	778.576
647.455 	1408.37
650.055 	175.945
652.654 	206.204
655.249     	870.706
657.842  	889.738
660.432  	264.47
663.02    	760.544
665.605   	1018.47
668.188  	756.3
670.768 	424.637
673.345  	228.877
675.92 	288.174
678.492  	305.401
681.062  	849.548
683.629  	118.578
686.193  	594.628
688.755   	503.868
691.314  	422.493
693.87   	772.213
696.423  	343.049
698.974   	103.405
701.523  	670.245
704.068   	539.135
706.611    	746.75
709.151  	743.565
711.688 	500.66
714.223   	797.657
716.755 	178.107
719.284   	788.118
721.81   	569.028
724.334  	659.605
726.855 	805.075
729.373 	403.188
731.888   	518.834
734.4      	283.865
736.91  	735.073
739.417  	827.319
741.921  	437.499
744.422  	351.648
746.92  	1066.89
749.416   	972.092
751.908  	623.405
754.398  	381.724
756.885 	640.445
759.369   	46.9727
761.85  	581.831
764.328         	428.925
766.803   	831.554
769.276 	754.178
771.745  	438.571
774.212  	652.155
776.675    	1000.56
779.136   	779.636
781.594  	781.757
784.048    	446.071
786.5 	1099.49
788.949 	582.898
791.395       	631.926
793.837  	-97.9122
796.277   	187.836
798.714 	274.169
801.148  	725.516
803.578  	327.996
806.006      	936.217
808.43   	1106.84
810.852    	450.356
813.271     	472.842
815.686  	1205.5
818.098  	515.628
820.508   	756.3
822.914  	-143.834
825.317  	675.563
827.717  	763.727
830.114   	492.103
832.507  	21.9744
834.898  	630.861
837.285 	825.201
839.669 	386.018
842.051 	429.997
844.429 	614.881
846.803  	589.297
849.175  	236.431
851.543 	471.772
853.908   	602.091
856.27  	818.846
858.629   	598.893
860.985  	765.849
863.337  	810.372
865.686    	630.861
868.032   	762.666
870.375    	502.798
872.714  	480.334
875.05     	603.157
877.382  	348.424
879.712     	450.356
882.038     	881.28
884.361    	548.747
886.68   	602.091
888.997    	702.143
891.309  	456.782
893.619  	535.931
895.925  	723.391
898.228    	477.123
900.527  	732.949
902.823   	393.531
905.116     	374.208
907.406   	372.06
909.692  	351.648
911.974  	117.495
914.253  	664.925
916.529    	665.989
918.801   	1140.46
921.07    	515.628
923.335   	592.496
925.597    	596.761
927.856  	562.625
930.111   	1148.86
932.362   	590.363
934.61   	447.142
936.855  	272.014
939.096      	1037.42
941.333  	586.097
943.567   	410.697
945.798   	481.404
948.025  	984.745
950.248  	701.08
952.468     	92.5619
954.684    	321.542
956.897   	611.684
959.106  	778.576
961.311  	437.499
963.513   	495.312
965.712   	635.121
967.906   	344.124
970.098  	493.173
972.285  	942.55
974.469   	166.212
976.649   	175.945
978.826  	577.564
980.999  	706.394
983.168       	1172.99
985.333    	81.7143
987.495  	105.573
989.654  	519.903
991.808    	185.675
993.959      	553.018
996.106  	292.481
998.249  	401.043
1000.39 	614.881
1002.53 	452.498
1004.66 	450.356
1006.79 	723.391
1008.91      	790.238
1011.03  	488.894
1013.15 	587.164
1015.26 	297.865
1017.37  	254.767
1019.48       	323.693
1021.58  	151.065
1023.68  	862.244
1025.77  	1016.36
1027.86  	762.666
1029.95 	395.678
1032.03    	904.533
1034.11  	826.26
1036.18   	413.915
1038.26  	360.244
1040.32 	547.679
1042.39    	1209.7
1044.45  	418.204
1045.55 	1197.12

File: Spectra_output_0_1736790438.txt
Wavelength [nm]    	Intensity [counts]
344.912	-1816.94
347.743   	186.107
350.574  	300.449
353.402 	457.211
356.229 	517.125
359.054  	343.48
361.878	1048.37
364.7	788.542
367.52    	688.749
370.339	569.455
373.155	1503.62
375.97   	1125.12
378.784 	870.072
381.596	560.917
384.405	967.24
387.214 	813.974
390.02  	914.464
392.825  	464.706
395.628 	754.603
398.429	332.728
401.228   	690.876
404.026    	965.131
406.822  	1036.79
409.616	355.302
412.408	263.823
415.198	203.396
417.987	900.729
420.773	492.531
423.558 	383.227
426.341 	507.503
429.122 	788.542
431.901  	506.434
434.679  	408.981
437.454	300.449
440.228	966.185
443 	784.301
445.769	1043.11
448.537	357.451
451.303	817.152
454.067  	1594.1
456.829	433.641
459.589	143.921
462.347	567.321
465.103  	7.18188
467.858  	690.876
470.61  	457.211
473.36 	898.616
476.108	1155.57
478.854 	137.425
481.598 	263.823
484.341   	1357.64
487.081  	1025.21
489.819  	245.493
492.555 	441.143
495.289  	1279.23
498.021 	627.027
500.75  	319.821
503.478 	420.778
506.204	880.646
508.927    	377.859
511.649   	306.908
514.368 	430.426
517.085 	779
519.8  	282.142
522.513  	345.63
525.224   	698.317
527.932 	348.854
530.639   	311.213
533.343  	835.154
536.045 	166.645
538.745     	927.137
541.443 	1030.47
544.138  	717.443
546.832    	120.096
549.523 	528.88
552.211    	948.249
554.898  	460.423
557.582  	768.395
560.264 	722.754
562.944 	697.254
565.622   	721.692
568.297   	443.286
570.97  	641.936
573.641  	446.5
576.309 	724.879
578.975  	556.648
581.639 	750.358
584.3  	829.86
586.959    	413.271
589.616     	643
592.271  	842.563
594.923   	881.704
597.572      	535.29
600.22  	287.527
602.865   	385.374
605.507  	1170.27
608.147  	413.271
610.785  	689.813
613.42  	767.334
616.053 	155.826
618.683   	260.589
621.311   	391.814
623.937 	951.415
626.56 	255.198
629.18 	378.933
631.799   	497.879
634.414 	967.24
637.027       	1074.67
639.638  	613.176
642.246  	250.885
644.852   	725.941
647.455 	1478.63
650.055 	262.745
652.654 	276.755
655.249     	708.944
657.842  	711.069
660.432  	274.6
663.02    	684.496
665.605   	970.404
668.188  	766.273
670.768 	505.365
673.345  	253.042
675.92 	361.749
678.492  	101.671
681.062  	891.218
683.629  	-21.1213
686.193  	567.321
688.755   	352.078
691.314  	276.755
693.87   	752.481
696.423  	443.286
698.974   	24.5842
701.523  	646.194
704.068   	506.434
706.611    	836.212
709.151  	706.819
711.688 	366.046
714.223   	758.847
716.755 	237.941
719.284   	883.818
721.81   	587.591
724.334  	613.176
726.855 	823.506
729.373 	279.987
731.888   	545.97
734.4      	397.18
736.91  	822.447
739.417  	918.689
741.921  	420.778
744.422  	344.555
746.92  	1066.26
749.416   	1026.26
751.908  	735.497
754.398  	359.6
756.885 	600.386
759.369   	15.8844
761.85  	576.924
764.328         	559.85
766.803   	880.646
769.276 	820.329
771.745  	376.785
774.212  	566.254
776.675    	825.624
779.136   	708.944
781.594  	816.093
784.048    	370.342
786.5 	1112.52
788.949 	453.998
791.395       	571.589
793.837  	-22.2105
796.277   	385.374
798.714 	441.143
801.148  	593.989
803.578  	370.342
806.006      	916.576
808.43   	1198.58
810.852    	504.296
813.271     	325.199
815.686  	1291.79
818.098  	630.222
820.508   	587.591
822.914  	-130.268
825.317  	780.06
827.717  	713.194
830.114   	458.282
832.507  	94.0803
834.898  	687.686
837.285 	670.67
839.669 	273.523
842.051 	216.355
844.429 	551.309
846.803  	746.113
849.175  	370.342
851.543 	505.365
853.908   	694.065
856.27  	870.072
858.629   	525.674
860.985  	740.805
863.337  	671.734
865.686    	356.377
868.032   	629.157
870.375    	450.785
872.714  	395.034
875.05     	568.388
877.382  	305.831
879.712     	527.811
882.038     	912.351
884.361    	535.29
886.68   	608.913
888.997    	641.936
891.309  	463.636
893.619  	466.848
895.925  	789.602
898.228    	301.526
900.527  	770.516
902.823   	456.14
905.116     	559.85
907.406   	415.416
909.692  	529.948
911.974  	221.753
914.253  	603.584
916.529    	681.306
918.801   	1058.89
921.07    	524.606
923.335   	656.838
925.597    	481.832
927.856  	567.321
930.111   	1016.78
932.362   	631.287
934.61   	250.885
936.855  	156.908
939.096      	945.083
941.333  	420.778
943.567   	411.126
945.798   	478.622
948.025  	1065.21
950.248  	620.635
952.468     	140.673
954.684    	392.887
956.897   	668.543
959.106  	795.962
961.311  	374.638
963.513   	557.715
965.712   	611.045
967.906   	389.668
970.098  	520.331
972.285  	1000.98
974.469   	192.592
976.649   	279.987
978.826  	780.06
980.999  	852.088
983.168       	1070.47
985.333    	73.4674
987.495  	-30.9257
989.654  	706.819
991.808    	216.355
993.959      	425.066
996.106  	210.956
998.249  	643
1000.39 	664.287
1002.53 	311.213
1004.66 	387.521
1006.79 	763.091
1008.91      	800.201
1011.03  	497.879
1013.15 	660.031
1015.26 	263.823
1017.37  	212.036
1019.48       	464.706
1021.58  	72.382
1023.68  	935.583
1025.77  	1026.26
1027.86  	681.306
1029.95 	514.987
1032.03    	1002.03
1034.11  	1018.89
1036.18   	377.859
1038.26  	539.563
1040.32 	628.092
1042.39    	1332.57
1044.45  	390.741
1045.55 	1292.84

File: Spectra_output_0_1736790505.txt
Wavelength [nm]    	Intensity [counts]
344.912	-1879.86
347.743   	299.659
350.574  	303.966
353.402 	504.581
356.229 	581.475
359.054  	278.12
361.878	1016.01
364.7	712.415
367.52    	636.896
370.339	782.464
373.155	1541.36
375.97   	1108.59
378.784 	813.197
381.596	626.245
384.405	911.576
387.214 	805.781
390.02  	931.642
392.825  	443.571
395.628 	859.776
398.429	354.514
401.228   	717.727
404.026    	971.74
406.822  	1049.7
409.616	416.774
412.408	210.164
415.198	279.197
417.987	903.124
420.773	437.142
423.558 	479.977
426.341 	487.467
429.122 	854.486
431.901  	476.767
434.679  	324.41
437.454	274.887
440.228	960.137
443 	802.602
445.769	1023.38
448.537	455.354
451.303	761.252
454.067  	1654.6
456.829	352.365
459.589	159.361
462.347	776.101
465.103  	162.606
467.858  	679.463
470.61  	565.471
473.36 	866.123
476.108	1136.96
478.854 	134.465
481.598 	391.027
484.341   	1314.03
487.081  	1121.2
489.819  	218.802
492.555 	534.506
495.289  	1360.01
498.021 	635.831
500.75  	489.607
503.478 	383.513
506.204	920.026
508.927    	328.713
511.649   	498.164
514.368 	383.513
517.085 	810.019
519.8  	353.439
522.513  	253.329
525.224   	782.464
527.932 	425.352
530.639   	324.41
533.343  	912.633
536.045 	292.122
538.745     	797.304
541.443 	1051.81
544.138  	748.518
546.832    	142.045
549.523 	472.486
552.211    	1092.83
554.898  	570.807
557.582  	824.848
560.264 	868.238
562.944 	702.851
565.622   	818.493
568.297   	427.496
570.97  	653.929
573.641  	651.8
576.309 	707.102
578.975  	668.826
581.639 	707.102
584.3  	937.976
586.959    	434.999
589.616     	684.78
592.271  	928.474
594.923   	869.296
597.572      	691.159
600.22  	345.916
602.865   	517.409
605.507  	1157.95
608.147  	379.219
610.785  	637.961
613.42  	591.074
616.053 	87.8619
618.683   	158.279
621.311   	470.345
623.937 	836.494
626.56 	359.886
629.18 	391.027
631.799   	560.135
634.414 	935.865
637.027       	1117
639.638  	682.653
642.246  	360.961
644.852   	905.237
647.455 	1567.35
650.055 	340.541
652.654 	354.514
655.249     	937.976
657.842  	891.499
660.432  	246.859
663.02    	793.064
665.605   	936.921
668.188  	736.842
670.768 	577.208
673.345  	133.383
675.92 	461.78
678.492  	281.352
681.062  	713.477
683.629  	61.8158
686.193  	574.008
688.755   	491.747
691.314  	409.267
693.87   	708.165
696.423  	414.63
698.974   	217.723
701.523  	617.723
704.068   	534.506
706.611    	657.122
709.151  	923.195
711.688 	512.065
714.223   	848.137
716.755 	178.828
719.284   	848.137
721.81   	694.348
724.334  	695.411
726.855 	813.197
729.373 	284.583
731.888   	543.051
734.4      	257.642
736.91  	898.897
739.417  	884.1
741.921  	434.999
744.422  	379.219
746.92  	1010.74
749.416   	843.904
751.908  	677.336
754.398  	419.991
756.885 	471.415
759.369   	77.0124
761.85  	577.208
764.328         	460.709
766.803   	929.53
769.276 	721.975
771.745  	417.847
774.212  	469.274
776.675    	958.027
779.136   	737.904
781.594  	772.92
784.048    	423.208
786.5 	1132.76
788.949 	616.657
791.395       	548.391
793.837  	-79.7119
796.277   	257.642
798.714 	348.066
801.148  	577.208
803.578  	355.589
806.006      	861.892
808.43   	1181.04
810.852    	577.208
813.271     	369.554
815.686  	1173.69
818.098  	670.954
820.508   	735.78
822.914  	-115.761
825.317  	859.776
827.717  	800.483
830.114   	535.575
832.507  	106.296
834.898  	746.396
837.285 	726.224
839.669 	289.969
842.051 	353.439
844.429 	525.959
846.803  	610.263
849.175  	271.655
851.543 	317.956
853.908   	629.441
856.27  	784.584
858.629   	625.18
860.985  	728.348
863.337  	737.904
865.686    	551.594
868.032   	718.789
870.375    	545.187
872.714  	641.155
875.05     	690.096
877.382  	379.219
879.712     	515.272
882.038     	811.079
884.361    	632.636
886.68   	615.591
888.997    	735.78
891.309  	598.538
893.619  	625.18
895.925  	760.191
898.228    	479.977
900.527  	709.227
902.823   	547.323
905.116     	607.066
907.406   	491.747
909.692  	458.567
911.974  	293.199
914.253  	747.457
916.529    	710.29
918.801   	1098.08
921.07    	642.22
923.335   	601.736
925.597    	378.145
927.856  	540.915
930.111   	1039.18
932.362   	545.187
934.61   	413.557
936.855  	269.499
939.096      	1080.21
941.333  	551.594
943.567   	482.118
945.798   	586.808
948.025  	1058.12
950.248  	714.54
952.468     	147.457
954.684    	285.661
956.897   	656.058
959.106  	794.124
961.311  	274.887
963.513   	553.729
965.712   	565.471
967.906   	362.035
970.098  	345.916
972.285  	1048.65
974.469   	227.438
976.649   	314.728
978.826  	670.954
980.999  	817.434
983.168       	1128.56
985.333    	29.2228
987.495  	58.5583
989.654  	706.04
991.808    	287.815
993.959      	581.475
996.106  	446.785
998.249  	504.581
1000.39 	772.92
1002.53 	455.354
1004.66 	530.233
1006.79 	721.975
1008.91      	793.064
1011.03  	556.932
1013.15 	585.742
1015.26 	204.764
1017.37  	217.723
1019.48       	436.071
1021.58  	271.655
1023.68  	904.181
1025.77  	933.753
1027.86  	708.165
1029.95 	329.788
1032.03    	1020.22
1034.11  	961.192
1036.18   	311.5
1038.26  	554.797
1040.32 	562.269
1042.39    	1342.25
1044.45  	430.712
1045.55 	1297.3

File: Spectra_output_0_1736791263.txt
Wavelength [nm]    	Intensity [counts]
344.912	-1971.13
347.743   	269.356
350.574  	368.337
353.402 	535.432
356.229 	706.961
359.054  	418.776
361.878	989.524
364.7	811.997
367.52    	628.234
370.339	808.818
373.155	1598.39
375.97   	1004.28
378.784 	874.443
381.596	651.659
384.405	987.416
387.214 	909.323
390.02  	1016.92
392.825  	621.842
395.628 	906.153
398.429	364.04
401.228   	634.624
404.026    	869.155
406.822  	988.47
409.616	429.497
412.408	205.7
415.198	141.9
417.987	971.6
420.773	522.611
423.558 	411.269
426.341 	507.646
429.122 	910.379
431.901  	549.316
434.679  	344.698
437.454	404.833
440.228	851.171
443 	869.155
445.769	1088.48
448.537	484.115
451.303	904.04
454.067  	1574.49
456.829	496.952
459.589	317.812
462.347	686.765
465.103  	146.23
467.858  	664.429
470.61  	553.587
473.36 	930.445
476.108	1192.43
478.854 	41.0333
481.598 	308.127
484.341   	1258.44
487.081  	1165.16
489.819  	287.671
492.555 	372.633
495.289  	1322.25
498.021 	633.559
500.75  	428.425
503.478 	488.395
506.204	1052.72
508.927    	458.424
511.649   	505.507
514.368 	524.748
517.085 	779.141
519.8  	350.072
522.513  	433.784
525.224   	634.624
527.932 	443.428
530.639   	324.267
533.343  	819.411
536.045 	267.2
538.745     	953.666
541.443 	1027.45
544.138  	655.916
546.832    	243.479
549.523 	504.438
552.211    	938.891
554.898  	500.161
557.582  	786.563
560.264 	736.701
562.944 	661.237
565.622   	778.081
568.297   	525.817
570.97  	689.954
573.641  	602.66
576.309 	734.577
578.975  	552.519
581.639 	775.96
584.3  	710.148
586.959    	461.637
589.616     	686.765
592.271  	1031.67
594.923   	1005.33
597.572      	503.369
600.22  	279.054
602.865   	413.414
605.507  	1190.33
608.147  	446.643
610.785  	739.885
613.42  	789.743
616.053 	159.216
618.683   	234.848
621.311   	456.283
623.937 	933.613
626.56 	641.013
629.18 	327.494
631.799   	537.569
634.414 	1028.51
637.027       	1143.12
639.638  	698.458
642.246  	305.975
644.852   	843.763
647.455 	1542.26
650.055 	369.411
652.654 	365.115
655.249     	883.959
657.842  	850.113
660.432  	270.433
663.02    	761.11
665.605   	944.169
668.188  	740.947
670.768 	505.507
673.345  	179.765
675.92 	430.569
678.492  	386.591
681.062  	902.983
683.629  	-142.156
686.193  	633.559
688.755   	589.866
691.314  	420.921
693.87   	758.988
696.423  	577.066
698.974   	238.085
701.523  	658.044
704.068   	434.856
706.611    	746.254
709.151  	871.27
711.688 	388.737
714.223   	764.293
716.755 	137.57
719.284   	907.21
721.81   	663.365
724.334  	693.144
726.855 	872.328
729.373 	439.143
731.888   	569.597
734.4      	365.115
736.91  	1012.71
739.417  	921.998
741.921  	481.975
744.422  	233.769
746.92  	1088.48
749.416   	972.654
751.908  	843.763
754.398  	276.899
756.885 	551.452
759.369   	112.655
761.85  	568.53
764.328         	514.06
766.803   	931.501
769.276 	781.262
771.745  	400.542
774.212  	417.704
776.675    	1008.49
779.136   	758.988
781.594  	746.254
784.048    	456.283
786.5 	1096.89
788.949 	728.206
791.395       	465.92
793.837  	-2.46685
796.277   	230.532
798.714 	464.849
801.148  	678.258
803.578  	400.542
806.006      	972.654
808.43   	1198.72
810.852    	518.336
813.271     	354.371
815.686  	1039.04
818.098  	587.733
820.508   	725.02
822.914  	9.50281
825.317  	732.454
827.717  	864.924
830.114   	476.624
832.507  	75.7826
834.898  	755.805
837.285 	622.908
839.669 	312.432
842.051 	367.263
844.429 	486.255
846.803  	661.237
849.175  	415.559
851.543 	384.444
853.908   	610.121
856.27  	900.87
858.629   	613.318
860.985  	683.575
863.337  	821.53
865.686    	625.038
868.032   	710.148
870.375    	536.5
872.714  	617.581
875.05     	678.258
877.382  	432.712
879.712     	493.743
882.038     	945.224
884.361    	697.396
886.68   	540.773
888.997    	542.909
891.309  	703.773
893.619  	590.932
895.925  	735.639
898.228    	453.07
900.527  	610.121
902.823   	448.785
905.116     	547.181
907.406   	395.177
909.692  	596.263
911.974  	197.058
914.253  	526.885
916.529    	798.222
918.801   	1191.38
921.07    	653.787
923.335   	629.299
925.597    	454.141
927.856  	550.384
930.111   	1039.04
932.362   	551.452
934.61   	222.977
936.855  	343.623
939.096      	919.885
941.333  	537.569
943.567   	450.927
945.798   	552.519
948.025  	1069.55
950.248  	571.732
952.468     	108.319
954.684    	324.267
956.897   	742.009
959.106  	758.988
961.311  	398.396
963.513   	481.975
965.712   	726.082
967.906   	249.95
970.098  	647.401
972.285  	1057.98
974.469   	251.029
976.649   	321.04
978.826  	641.013
980.999  	871.27
983.168       	1135.77
985.333    	107.236
987.495  	-22.0653
989.654  	583.467
991.808    	339.323
993.959      	429.497
996.106  	342.548
998.249  	525.817
1000.39 	695.27
1002.53 	511.922
1004.66 	520.473
1006.79 	796.103
1008.91      	791.863
1011.03  	515.129
1013.15 	717.585
1015.26 	153.806
1017.37  	167.87
1019.48       	368.337
1021.58  	140.818
1023.68  	1014.82
1025.77  	1129.47
1027.86  	633.559
1029.95 	355.445
1032.03    	1081.12
1034.11  	996.903
1036.18   	284.44
1038.26  	428.425
1040.32 	536.5
1042.39    	1263.68
1044.45  	530.091
1045.55 	1196.63