Folder: deuterium_analysis/JinData

Note: JinData/Output_Deuterium_test.txt
API Version  : 3.1.0 
Total Device : 1     

First Device : 2       
Serial Number: SR401491     

acquisitionDelay(device): acqDelay     =  400 
acquisitionDelay(device): acqDelayInc  =  1 
acquisitionDelay(device): acqDelayMin  =  0 
acquisitionDelay(device): acqDelayMax  =  335500 

acquisitionDelay(device): set acqDelay =  400 
acquisitionDelay(device): get acqDelay(expected 400)  =  400 

Reading spectra for dev s/n = SR401491
spectra [0] λ = 344.912 - 346.001: -170, -170, -151, -222, 38, 14
spectra [0] λ = 409.830 - 410.905: 4238, 4096, 1172, 229, 220, 102
spectra [0] λ = 433.397 - 434.465: 20871, 31790, 30224, 13785, 4232, 891
spectra [0] λ = 485.816 - 486.870: 63188, 63188, 63188, 63188, 63188, 63188
spectra [0] λ = 505.365 - 506.413: 73, 109, 89, 136, 51, 161
len(spectra) =  3648
Closing device!

**** exiting program ****

Note: JinData/README.txt
# Jin OceanDirect Spectroscopy data taken November 2024 using a deuterium discharge tube approximately 6-8 cm away from discharge source with a constant integration time of 1000 ms. Data is taken using OceanDirect.

Note: JinData/SpectrumFitData.txt
D:/Project8/ECR_Cavity/OpticalEmissionSpectroscopy/OceanOptics/Hydrogen_SR4014911.xlsx
------------------------------------------------------------
                    Amplitude           Amplitude Err       Mean                Mean Err            Sigma               Sigma Err           FWHM                
delta               2346.37224          154.60330           409.10224           1.57727             10.64600            2.10214             25.06942            
gamma               38343.29756         1931.22584          433.43202           0.01829             0.31457             0.01831             0.74075             
beta                72399.17963         2388.00119          485.33451           0.05899             1.54889             0.05899             3.64735             
                                                            
D:/Project8/ECR_Cavity/OpticalEmissionSpectroscopy/OceanOptics/Spectra_output_0_1732215328.xlsx
------------------------------------------------------------
                    Amplitude           Amplitude Err       Mean                Mean Err            Sigma               Sigma Err           FWHM                
delta               1347.73172          162.79906           409.34436           1.44464             7.50929             1.70109             17.68302            
gamma               39983.64526         1569.66114          433.43478           0.01319             0.29103             0.01319             0.68532             
beta                73071.14586         2420.41716          485.33724           0.05853             1.53036             0.05853             3.60373

File: Spectra_output_0_1732215328.txt
Wavelength [nm]    	Intensity [counts]
344.912	-1516.35
347.743   	196.625
350.574  	344.268
353.402 	1203.55
356.229 	2243.25
359.054  	421.564
361.878	754.32
364.7	684.213
367.52    	571.305
370.339	1051.25
373.155	1524.16
375.97   	743.707
378.784 	758.564
381.596	570.238
384.405	762.808
387.214 	735.214
390.02  	1058.61
392.825  	772.354
395.628 	878.249
398.429	484.757
401.228   	836.988
404.026    	1367.81
406.822  	895.163
409.616	7960.45
412.408	250.597
415.198	173.926
417.987	912.069
420.773	350.717
423.558 	264.613
426.341 	481.547
429.122 	632.068
431.901  	4863.55
434.679  	535.005
437.454	225.783
440.228	875.077
443 	705.473
445.769	1376.16
448.537	612.892
451.303	802.037
454.067  	1595.9
456.829	834.871
459.589	149.044
462.347	1556.4
465.103  	112.221
467.858  	778.717
470.61  	463.35
473.36 	675.705
476.108	1070.18
478.854 	281.854
481.598 	371.129
484.341   	62567
487.081  	62567
489.819  	797.798
492.555 	1894.21
495.289  	1295.69
498.021 	716.098
500.75  	915.238
503.478 	447.285
506.204	947.968
508.927    	352.866
511.649   	441.928
514.368 	479.406
517.085 	757.503
519.8  	240.89
522.513  	370.055
525.224   	885.65
527.932 	304.468
530.639   	298.009
533.343  	992.265
536.045 	232.258
538.745     	774.475
541.443 	958.52
544.138  	927.911
546.832    	306.62
549.523 	241.969
552.211    	923.687
554.898  	317.382
557.582  	1044.93
560.264 	514.701
562.944 	579.84
565.622   	1040.72
568.297   	1587.59
570.97  	646.975
573.641  	816.869
576.309 	1454.39
578.975  	2823.9
581.639 	3194.84
584.3  	1909.7
586.959    	1474.18
589.616     	1081.75
592.271  	3513.88
594.923   	1310.34
597.572      	3752.35
600.22  	1115.39
602.865   	3394.47
605.507  	1565.76
608.147  	1188.87
610.785  	951.134
613.42  	1171.03
616.053 	313.078
618.683   	266.769
621.311   	456.925
623.937 	622.481
626.56 	366.833
629.18 	289.394
631.799   	742.645
634.414 	790.379
637.027       	1069.13
639.638  	581.973
642.246  	459.067
644.852   	908.9
647.455 	1284.19
650.055 	10315.6
652.654 	739.461
655.249     	62567
657.842  	62567
660.432  	62567
663.02    	62567
665.605   	3167.45
668.188  	1196.21
670.768 	1005.97
673.345  	536.073
675.92 	468.703
678.492  	357.164
681.062  	708.66
683.629  	94.8754
686.193  	571.305
688.755   	379.72
691.314  	281.854
693.87   	776.596
696.423  	290.471
698.974   	211.748
701.523  	881.421
704.068   	477.266
706.611    	493.315
709.151  	589.439
711.688 	281.854
714.223   	843.339
716.755 	93.791
719.284   	724.595
721.81   	668.259
724.334  	436.571
726.855 	481.547
729.373 	132.805
731.888   	704.41
734.4      	277.545
736.91  	654.426
739.417  	661.875
741.921  	542.482
744.422  	592.638
746.92  	740.522
749.416   	767.051
751.908  	1079.65
754.398  	396.894
756.885 	477.266
759.369   	130.639
761.85  	784.018
764.328         	722.471
766.803   	625.677
769.276 	463.35
771.745  	272.158
774.212  	605.431
776.675    	62567
779.136   	861.328
781.594  	861.328
784.048    	468.703
786.5 	833.812
788.949 	461.208
791.395       	707.598
793.837  	17.7694
796.277   	123.057
798.714 	143.632
801.148  	608.629
803.578  	289.394
806.006      	807.335
808.43   	906.787
810.852    	632.068
813.271     	510.425
815.686  	1036.51
818.098  	500.802
820.508   	1094.37
822.914  	-165.586
825.317  	579.84
827.717  	589.439
830.114   	591.572
832.507  	99.2129
834.898  	529.663
837.285 	453.712
839.669 	153.373
842.051 	463.35
844.429 	20083.4
846.803  	576.639
849.175  	285.086
851.543 	333.516
853.908   	362.536
856.27  	584.106
858.629   	547.821
860.985  	638.457
863.337  	543.55
865.686    	385.088
868.032   	725.657
870.375    	523.252
872.714  	388.308
875.05     	358.239
877.382  	265.691
879.712     	296.932
882.038     	715.035
884.361    	328.139
886.68   	619.285
888.997    	515.77
891.309  	259.223
893.619  	308.773
895.925  	999.642
898.228    	397.967
900.527  	374.351
902.823   	257.067
905.116     	568.103
907.406   	427.996
909.692  	323.837
911.974  	118.723
914.253  	574.505
916.529    	648.039
918.801   	836.988
921.07    	425.852
923.335   	561.7
925.597    	632.068
927.856  	331.366
930.111   	943.746
932.362   	650.168
934.61   	207.428
936.855  	100.297
939.096      	943.746
941.333  	684.213
943.567   	349.642
945.798   	303.391
948.025  	673.578
950.248  	618.22
952.468     	144.715
954.684    	84.0288
956.897   	404.404
959.106  	895.163
961.311  	315.23
963.513   	298.009
965.712   	425.852
967.906   	220.386
970.098  	604.365
972.285  	821.106
974.469   	85.1136
976.649   	150.127
978.826  	485.827
980.999  	698.033
983.168       	905.73
985.333    	-19.2337
987.495  	11.2432
989.654  	330.29
991.808    	86.1984
993.959      	703.347
996.106  	129.556
998.249  	335.667
1000.39 	392.601
1002.53 	501.872
1004.66 	378.646
1006.79 	426.924
1008.91      	626.742
1011.03  	579.84
1013.15 	569.17
1015.26 	64.4938
1017.37  	-87.9369
1019.48       	418.347
1021.58  	-11.6111
1023.68  	537.141
1025.77  	678.896
1027.86  	675.705
1029.95 	402.258
1032.03    	725.657
1034.11  	561.7
1036.18   	382.941
1038.26  	416.202
1040.32 	310.925
1042.39    	934.246
1044.45  	358.239
1045.55 	972.232

File: Spectra_output_0_1733519714.txt
Wavelength [nm]    	Intensity [counts]
344.912	-1500.84
347.743   	154.744
350.574  	216.355
353.402 	298.296
356.229 	580.124
359.054  	342.405
361.878	790.662
364.7	483.972
367.52    	620.635
370.339	587.591
373.155	1358.69
375.97   	920.801
378.784 	647.259
381.596	608.913
384.405	652.581
387.214 	622.766
390.02  	1084.14
392.825  	569.455
395.628 	661.095
398.429	164.481
401.228   	767.334
404.026    	996.762
406.822  	643
409.616	278.91
412.408	136.342
415.198	-54.9074
417.987	573.723
420.773	190.43
423.558 	265.979
426.341 	265.979
429.122 	547.038
431.901  	399.326
434.679  	162.318
437.454	209.876
440.228	707.881
443 	630.222
445.769	1121.97
448.537	436.857
451.303	577.991
454.067  	1655.36
456.829	406.836
459.589	196.914
462.347	502.157
465.103  	55.0108
467.858  	651.517
470.61  	378.933
473.36 	921.857
476.108	1031.53
478.854 	73.4674
481.598 	372.49
484.341   	1191.24
487.081  	1090.45
489.819  	349.929
492.555 	491.461
495.289  	1274
498.021 	666.415
500.75  	652.581
503.478 	712.132
506.204	1058.89
508.927    	630.222
511.649   	846.797
514.368 	681.306
517.085 	1069.41
519.8  	773.698
522.513  	890.161
525.224   	1378.52
527.932 	976.732
530.639   	1036.79
533.343  	1646.02
536.045 	1318.98
538.745     	1740.37
541.443 	1841.79
544.138  	1831.45
546.832    	1242.59
549.523 	1397.31
552.211    	2090.37
554.898  	1562.92
557.582  	2127.41
560.264 	1750.73
562.944 	1850.06
565.622   	2002.82
568.297   	1666.77
570.97  	1633.56
573.641  	1626.3
576.309 	2037.85
578.975  	1930.62
581.639 	1889.32
584.3  	2233.25
586.959    	1988.39
589.616     	1961.57
592.271  	2086.25
594.923   	2056.39
597.572      	1791.1
600.22  	1596.18
602.865   	1888.29
605.507  	2405.52
608.147  	1464.04
610.785  	2059.48
613.42  	1822.14
616.053 	1376.44
618.683   	1211.16
621.311   	1480.71
623.937 	2053.3
626.56 	1630.45
629.18 	1307.48
631.799   	1706.18
634.414 	1527.56
637.027       	1856.26
639.638  	1058.89
642.246  	1009.41
644.852   	916.576
647.455 	1577.47
650.055 	427.21
652.654 	452.927
655.249     	1012.57
657.842  	861.61
660.432  	247.65
663.02    	1026.26
665.605   	806.558
668.188  	615.307
670.768 	675.989
673.345  	203.396
675.92 	298.296
678.492  	206.636
681.062  	705.756
683.629  	-76.7282
686.193  	465.777
688.755   	207.716
691.314  	316.593
693.87   	740.805
696.423  	367.12
698.974   	-60.3609
701.523  	871.129
704.068   	367.12
706.611    	552.377
709.151  	656.838
711.688 	301.526
714.223   	892.275
716.755 	63.6978
719.284   	576.924
721.81   	604.65
724.334  	557.715
726.855 	598.254
729.373 	259.511
731.888   	623.831
734.4      	305.831
736.91  	702.568
739.417  	731.25
741.921  	382.154
744.422  	430.426
746.92  	822.447
749.416   	782.181
751.908  	953.526
754.398  	396.107
756.885 	481.832
759.369   	-100.752
761.85  	623.831
764.328         	465.777
766.803   	688.749
769.276 	611.045
771.745  	330.577
774.212  	448.642
776.675    	677.052
779.136   	544.903
781.594  	892.275
784.048    	391.814
786.5 	801.26
788.949 	431.498
791.395       	651.517
793.837  	-200.368
796.277   	44.1481
798.714 	185.026
801.148  	671.734
803.578  	359.6
806.006      	813.974
808.43   	786.422
810.852    	545.97
813.271     	310.136
815.686  	1014.67
818.098  	398.253
820.508   	785.361
822.914  	-151.058
825.317  	605.716
827.717  	565.187
830.114   	473.271
832.507  	-32.0153
834.898  	522.468
837.285 	408.981
839.669 	170.971
842.051 	349.929
844.429 	431.498
846.803  	447.571
849.175  	263.823
851.543 	345.63
853.908   	503.226
856.27  	660.031
858.629   	488.252
860.985  	724.879
863.337  	699.38
865.686    	312.289
868.032   	725.941
870.375    	604.65
872.714  	254.12
875.05     	500.018
877.382  	291.835
879.712     	396.107
882.038     	647.259
884.361    	505.365
886.68   	531.017
888.997    	630.222
891.309  	333.803
893.619  	396.107
895.925  	846.797
898.228    	444.357
900.527  	536.358
902.823   	360.674
905.116     	406.836
907.406   	447.571
909.692  	253.042
911.974  	132.011
914.253  	605.716
916.529    	729.126
918.801   	918.689
921.07    	518.193
923.335   	435.785
925.597    	539.563
927.856  	268.134
930.111   	1022.05
932.362   	601.452
934.61   	117.929
936.855  	-24.389
939.096      	999.924
941.333  	674.925
943.567   	362.823
945.798   	450.785
948.025  	811.856
950.248  	582.258
952.468     	-15.676
954.684    	200.155
956.897   	627.027
959.106  	793.842
961.311  	314.441
963.513   	383.227
965.712   	619.569
967.906   	22.4095
970.098  	570.522
972.285  	829.86
974.469   	38.7151
976.649   	205.556
978.826  	581.191
980.999  	665.351
983.168       	954.581
985.333    	77.8082
987.495  	-77.8197
989.654  	522.468
991.808    	2.82952
993.959      	699.38
996.106  	319.821
998.249  	349.929
1000.39 	495.74
1002.53 	281.065
1004.66 	485.042
1006.79 	474.341
1008.91      	673.861
1011.03  	557.715
1013.15 	656.838
1015.26 	102.755
1017.37  	88.6574
1019.48       	241.178
1021.58  	148.251
1023.68  	781.121
1025.77  	938.75
1027.86  	689.813
1029.95 	288.605
1032.03    	838.329
1034.11  	909.182
1036.18   	474.341
1038.26  	439
1040.32 	286.45
1042.39    	1132.48
1044.45  	519.262
1045.55 	1188.1

File: Spectra_output_0_1733519723.txt
Wavelength [nm]    	Intensity [counts]
344.912	-1524.54
347.743   	200.947
350.574  	151.209
353.402 	353.941
356.229 	560.632
359.054  	394.747
361.878	753.259
364.7	425.852
367.52    	675.705
370.339	500.802
373.155	1228.7
375.97   	745.83
378.784 	740.522
381.596	484.757
384.405	510.425
387.214 	586.24
390.02  	1001.75
392.825  	394.747
395.628 	699.096
398.429	157.701
401.228   	639.522
404.026    	1162.64
406.822  	745.83
409.616	192.303
412.408	60.1508
415.198	170.682
417.987	809.454
420.773	307.697
423.558 	175.008
426.341 	323.837
429.122 	605.431
431.901  	323.837
434.679  	191.223
437.454	80.7739
440.228	785.079
443 	675.705
445.769	953.244
448.537	461.208
451.303	544.618
454.067  	1606.29
456.829	482.617
459.589	296.932
462.347	467.633
465.103  	-71.5625
467.858  	693.781
470.61  	349.642
473.36 	672.514
476.108	1132.2
478.854 	-11.6111
481.598 	303.391
484.341   	1129.05
487.081  	991.211
489.819  	338.893
492.555 	595.837
495.289  	1438.75
498.021 	674.641
500.75  	523.252
503.478 	616.089
506.204	960.63
508.927    	771.294
511.649   	830.636
514.368 	757.503
517.085 	1029.14
519.8  	728.843
522.513  	922.631
525.224   	1555.36
527.932 	821.106
530.639   	1057.56
533.343  	1585.51
536.045 	1223.46
538.745     	1661.31
541.443 	1932.41
544.138  	1749.42
546.832    	1309.29
549.523 	1189.92
552.211    	2147.7
554.898  	1656.12
557.582  	2155.92
560.264 	1787.72
562.944 	1982.96
565.622   	1944.79
568.297   	1673.76
570.97  	1620.83
573.641  	1559.52
576.309 	1918.99
578.975  	1869.42
581.639 	1796
584.3  	2308.92
586.959    	1861.15
589.616     	1899.37
592.271  	2142.56
594.923   	1931.38
597.572      	1575.12
600.22  	1692.42
602.865   	1865.28
605.507  	2313.02
608.147  	1548.08
610.785  	2041.7
613.42  	1743.2
616.053 	1270.58
618.683   	1432.5
621.311   	1658.19
623.937 	1864.25
626.56 	1489.81
629.18 	1366.76
631.799   	1664.42
634.414 	1529.36
637.027       	1827.03
639.638  	936.357
642.246  	861.328
644.852   	956.409
647.455 	1541.84
650.055 	510.425
652.654 	507.218
655.249     	952.189
657.842  	689.529
660.432  	303.391
663.02    	813.691
665.605   	906.787
668.188  	590.505
670.768 	559.565
673.345  	208.508
675.92 	278.622
678.492  	211.748
681.062  	626.742
683.629  	-150.256
686.193  	343.193
688.755   	200.947
691.314  	231.179
693.87   	659.747
696.423  	195.545
698.974   	62.3224
701.523  	717.16
704.068   	381.867
706.611    	561.7
709.151  	667.195
711.688 	227.942
714.223   	818.988
716.755 	-41.0246
719.284   	610.76
721.81   	495.455
724.334  	404.404
726.855 	696.97
729.373 	271.08
731.888   	617.154
734.4      	268.925
736.91  	591.572
739.417  	673.578
741.921  	565.969
744.422  	387.235
746.92  	825.342
749.416   	816.869
751.908  	875.077
754.398  	307.697
756.885 	375.425
759.369   	-35.5751
761.85  	658.683
764.328         	496.524
766.803   	574.505
769.276 	563.834
771.745  	291.548
774.212  	570.238
776.675    	786.139
779.136   	523.252
781.594  	671.45
784.048    	318.458
786.5 	949.023
788.949 	423.708
791.395       	762.808
793.837  	-49.746
796.277   	31.904
798.714 	206.348
801.148  	729.905
803.578  	345.343
806.006      	943.746
808.43   	878.249
810.852    	504.01
813.271     	356.09
815.686  	1145.85
818.098  	490.106
820.508   	1012.29
822.914  	-122.904
825.317  	601.167
827.717  	482.617
830.114   	529.663
832.507  	28.6429
834.898  	506.149
837.285 	480.477
839.669 	229.021
842.051 	559.565
844.429 	549.957
846.803  	563.834
849.175  	190.142
851.543 	445.142
853.908   	388.308
856.27  	726.719
858.629   	556.363
860.985  	725.657
863.337  	562.767
865.686    	366.833
868.032   	816.869
870.375    	624.612
872.714  	368.981
875.05     	481.547
877.382  	388.308
879.712     	410.84
882.038     	727.781
884.361    	403.331
886.68   	701.222
888.997    	593.704
891.309  	226.862
893.619  	380.794
895.925  	875.077
898.228    	494.385
900.527  	467.633
902.823   	392.601
905.116     	485.827
907.406   	278.622
909.692  	291.548
911.974  	156.619
914.253  	649.104
916.529    	788.259
918.801   	792.499
921.07    	445.142
923.335   	518.977
925.597    	557.43
927.856  	362.536
930.111   	953.244
932.362   	526.458
934.61   	236.574
936.855  	168.519
939.096      	982.777
941.333  	629.938
943.567   	505.08
945.798   	305.544
948.025  	912.069
950.248  	661.875
952.468     	48.2039
954.684    	206.348
956.897   	505.08
959.106  	699.096
961.311  	394.747
963.513   	288.317
965.712   	438.714
967.906   	144.715
970.098  	593.704
972.285  	684.213
974.469   	3.62731
976.649   	288.317
978.826  	514.701
980.999  	658.683
983.168       	952.189
985.333    	43.8582
987.495  	-130.56
989.654  	417.275
991.808    	14.5065
993.959      	669.323
996.106  	267.847
998.249  	302.315
1000.39 	483.687
1002.53 	577.706
1004.66 	342.118
1006.79 	527.526
1008.91      	607.563
1011.03  	436.571
1013.15 	693.781
1015.26 	35.1648
1017.37  	78.6038
1019.48       	373.277
1021.58  	169.601
1023.68  	544.618
1025.77  	872.962
1027.86  	676.768
1029.95 	404.404
1032.03    	908.9
1034.11  	777.657
1036.18   	288.317
1038.26  	396.894
1040.32 	429.068
1042.39    	976.451
1044.45  	456.925
1045.55 	1120.64

File: Spectra_output_0_1736789367.txt
Wavelength [nm]    	Intensity [counts]
344.912	-1712.17
347.743   	192.88
350.574  	223.121
353.402 	412.485
356.229 	536.643
359.054  	358.812
361.878	857.66
364.7	600.67
367.52    	663.507
370.339	727.286
373.155	1421.58
375.97   	835.436
378.784 	761.252
381.596	562.269
384.405	870.354
387.214 	723.038
390.02  	886.214
392.825  	431.784
395.628 	945.365
398.429	223.121
401.228   	648.607
404.026    	1002.31
406.822  	935.865
409.616	445.714
412.408	203.684
415.198	222.041
417.987	933.753
420.773	364.184
423.558 	338.391
426.341 	510.996
429.122 	646.478
431.901  	471.415
434.679  	278.12
437.454	187.476
440.228	905.237
443 	760.191
445.769	1056.02
448.537	524.891
451.303	841.787
454.067  	1436.18
456.829	437.142
459.589	155.033
462.347	502.442
465.103  	-78.6203
467.858  	765.495
470.61  	401.758
473.36 	662.443
476.108	931.642
478.854 	13.9991
481.598 	326.562
484.341   	1302.53
487.081  	1120.15
489.819  	374.924
492.555 	424.28
495.289  	1381.93
498.021 	475.697
500.75  	321.183
503.478 	449.999
506.204	862.95
508.927    	189.638
511.649   	416.774
514.368 	411.412
517.085 	611.329
519.8  	202.603
522.513  	440.357
525.224   	767.617
527.932 	324.41
530.639   	112.799
533.343  	958.027
536.045 	329.788
538.745     	899.954
541.443 	760.191
544.138  	789.884
546.832    	150.704
549.523 	478.907
552.211    	866.123
554.898  	484.258
557.582  	1025.49
560.264 	626.245
562.944 	601.736
565.622   	823.789
568.297   	368.48
570.97  	727.286
573.641  	440.357
576.309 	813.197
578.975  	528.096
581.639 	601.736
584.3  	771.859
586.959    	306.118
589.616     	731.533
592.271  	804.722
594.923   	937.976
597.572      	563.337
600.22  	288.892
602.865   	383.513
605.507  	887.271
608.147  	306.118
610.785  	730.471
613.42  	647.543
616.053 	152.868
618.683   	159.361
621.311   	238.229
623.937 	794.124
626.56 	196.121
629.18 	220.962
631.799   	626.245
634.414 	829.083
637.027       	1057.07
639.638  	681.59
642.246  	372.776
644.852   	643.284
647.455 	1430.97
650.055 	233.913
652.654 	300.736
655.249     	778.222
657.842  	724.1
660.432  	197.202
663.02    	923.195
665.605   	898.897
668.188  	627.311
670.768 	473.556
673.345  	66.1586
675.92 	440.357
678.492  	192.88
681.062  	677.336
683.629  	-48.074
686.193  	548.391
688.755   	282.429
691.314  	197.202
693.87   	779.283
696.423  	350.215
698.974   	-32.8144
701.523  	735.78
704.068   	416.774
706.611    	598.538
709.151  	721.975
711.688 	362.035
714.223   	840.729
716.755 	79.1826
719.284   	762.313
721.81   	515.272
724.334  	444.643
726.855 	719.851
729.373 	270.577
731.888   	595.339
734.4      	335.165
736.91  	667.762
739.417  	729.41
741.921  	492.816
744.422  	476.767
746.92  	1009.69
749.416   	871.411
751.908  	836.494
754.398  	395.32
756.885 	476.767
759.369   	-38.2632
761.85  	613.46
764.328         	467.133
766.803   	852.37
769.276 	650.736
771.745  	309.347
774.212  	639.025
776.675    	762.313
779.136   	621.984
781.594  	762.313
784.048    	408.194
786.5 	1059.17
788.949 	484.258
791.395       	555.865
793.837  	-89.5384
796.277   	91.1159
798.714 	297.506
801.148  	740.027
803.578  	350.215
806.006      	861.892
808.43   	984.394
810.852    	650.736
813.271     	367.406
815.686  	1128.56
818.098  	496.025
820.508   	823.789
822.914  	-36.0836
825.317  	781.403
827.717  	683.717
830.114   	490.677
832.507  	-19.7418
834.898  	695.411
837.285 	689.033
839.669 	287.815
842.051 	402.831
844.429 	483.188
846.803  	568.673
849.175  	281.352
851.543 	279.197
853.908   	522.753
856.27  	839.67
858.629   	684.78
860.985  	593.207
863.337  	691.159
865.686    	460.709
868.032   	682.653
870.375    	537.711
872.714  	386.734
875.05     	429.64
877.382  	314.728
879.712     	425.352
882.038     	880.928
884.361    	537.711
886.68   	629.441
888.997    	554.797
891.309  	411.412
893.619  	537.711
895.925  	768.677
898.228    	367.406
900.527  	546.255
902.823   	297.506
905.116     	600.67
907.406   	415.702
909.692  	473.556
911.974  	140.962
914.253  	645.414
916.529    	768.677
918.801   	1129.61
921.07    	529.165
923.335   	598.538
925.597    	537.711
927.856  	522.753
930.111   	1113.85
932.362   	521.685
934.61   	273.81
936.855  	171.259
939.096      	1099.14
941.333  	710.29
943.567   	432.855
945.798   	367.406
948.025  	942.198
950.248  	750.641
952.468     	205.844
954.684    	444.643
956.897   	609.197
959.106  	887.271
961.311  	317.956
963.513   	452.141
965.712   	616.657
967.906   	341.616
970.098  	632.636
972.285  	862.95
974.469   	84.6075
976.649   	211.244
978.826  	586.808
980.999  	783.524
983.168       	1093.88
985.333    	101.96
987.495  	0.943208
989.654  	500.303
991.808    	135.548
993.959      	668.826
996.106  	241.465
998.249  	628.376
1000.39 	582.542
1002.53 	432.855
1004.66 	458.567
1006.79 	673.081
1008.91      	700.726
1011.03  	580.409
1013.15 	717.727
1015.26 	99.7913
1017.37  	155.033
1019.48       	366.332
1021.58  	208.004
1023.68  	719.851
1025.77  	958.027
1027.86  	753.825
1029.95 	301.813
1032.03    	838.612
1034.11  	848.137
1036.18   	427.496
1038.26  	471.415
1040.32 	559.067
1042.39    	1067.59
1044.45  	485.328
1045.55 	1198.86