Folder: deuterium_analysis/JinData (part 3)

File: Spectra_output_0_1737048694.txt
Wavelength [nm]    	Intensity [counts]
344.912	-1705.47
347.743   	227.078
350.574  	364.9
353.402 	186.035
356.229 	703.56
359.054  	338.033
361.878	841.434
364.7	675.918
367.52    	482.831
370.339	672.727
373.155	1281.26
375.97   	948.179
378.784 	808.607
381.596	577.92
384.405	789.531
387.214 	753.471
390.02  	923.899
392.825  	536.287
395.628 	805.428
398.429	223.84
401.228   	764.081
404.026    	946.068
406.822  	827.672
409.616	362.751
412.408	127.606
415.198	95.0925
417.987	734.365
420.773	364.9
423.558 	279.915
426.341 	491.39
429.122 	674.854
431.901  	518.122
434.679  	179.549
437.454	82.0761
440.228	917.562
443 	737.55
445.769	1039.88
448.537	446.428
451.303	715.248
454.067  	1591.95
456.829	429.283
459.589	237.869
462.347	513.847
465.103  	97.2613
467.858  	653.575
470.61  	568.317
473.36 	765.142
476.108	1034.61
478.854 	17.9872
481.598 	296.071
484.341   	1052.51
487.081  	1067.24
489.819  	342.333
492.555 	504.224
495.289  	1250.9
498.021 	446.428
500.75  	324.052
503.478 	469.988
506.204	811.785
508.927    	308.988
511.649   	529.877
514.368 	375.64
517.085 	717.373
519.8  	220.602
522.513  	398.181
525.224   	691.868
527.932 	315.445
530.639   	235.712
533.343  	917.562
536.045 	354.156
538.745     	875.289
541.443 	832.966
544.138  	783.17
546.832    	199.003
549.523 	381.008
552.211    	878.461
554.898  	339.108
557.582  	802.249
560.264 	733.303
562.944 	411.055
565.622   	858.366
568.297   	354.156
570.97  	489.251
573.641  	488.181
576.309 	814.963
578.975  	607.776
581.639 	609.908
584.3  	680.172
586.959    	476.41
589.616     	739.673
592.271  	736.488
594.923   	782.11
597.572      	420.706
600.22  	188.197
602.865   	299.301
605.507  	1084.07
608.147  	342.333
610.785  	669.536
613.42  	556.576
616.053 	45.1622
618.683   	159
621.311   	453.927
623.937 	732.241
626.56 	220.602
629.18 	241.106
631.799   	667.408
634.414 	816.022
637.027       	1064.08
639.638  	592.852
642.246  	440
644.852   	692.931
647.455 	1328.32
650.055 	220.602
652.654 	201.163
655.249     	817.081
657.842  	714.186
660.432  	252.97
663.02    	771.506
665.605   	812.844
668.188  	603.513
670.768 	467.847
673.345  	113.522
675.92 	424.995
678.492  	159
681.062  	788.471
683.629  	-242.157
686.193  	422.851
688.755   	280.993
691.314  	287.456
693.87   	657.832
696.423  	326.203
698.974   	79.9061
701.523  	739.673
704.068   	574.719
706.611    	573.652
709.151  	830.848
711.688 	252.97
714.223   	900.659
716.755 	75.5656
719.284   	669.536
721.81   	631.216
724.334  	605.645
726.855 	746.042
729.373 	220.602
731.888   	535.219
734.4      	205.484
736.91  	647.188
739.417  	859.424
741.921  	440
744.422  	415.345
746.92  	1115.6
749.416   	847.785
751.908  	950.29
754.398  	483.901
756.885 	322.976
759.369   	-47.3471
761.85  	606.711
764.328         	408.91
766.803   	759.837
769.276 	571.518
771.745  	347.708
774.212  	602.447
776.675    	826.613
779.136   	729.056
781.594  	807.547
784.048    	402.473
786.5 	940.791
788.949 	557.644
791.395       	555.509
793.837  	-122.685
796.277   	121.107
798.714 	228.158
801.148  	606.711
803.578  	461.423
806.006      	924.955
808.43   	1133.46
810.852    	626.956
813.271     	436.785
815.686  	1110.35
818.098  	498.877
820.508   	802.249
822.914  	-127.059
825.317  	730.118
827.717  	693.994
830.114   	466.776
832.507  	-121.592
834.898  	673.791
837.285 	635.476
839.669 	362.751
842.051 	379.935
844.429 	465.706
846.803  	572.585
849.175  	219.522
851.543 	297.147
853.908   	451.784
856.27  	829.789
858.629   	586.453
860.985  	803.309
863.337  	652.51
865.686    	458.21
868.032   	652.51
870.375    	544.831
872.714  	374.566
875.05     	515.984
877.382  	392.816
879.712     	330.505
882.038     	828.731
884.361    	534.15
886.68   	602.447
888.997    	698.246
891.309  	399.254
893.619  	489.251
895.925  	850.959
898.228    	445.357
900.527  	492.46
902.823   	336.957
905.116     	491.39
907.406   	381.008
909.692  	352.007
911.974  	9.28528
914.253  	651.446
916.529    	706.748
918.801   	1112.45
921.07    	445.357
923.335   	521.328
925.597    	605.645
927.856  	409.982
930.111   	1007.23
932.362   	650.381
934.61   	247.578
936.855  	244.342
939.096      	1109.29
941.333  	454.997
943.567   	350.932
945.798   	556.576
948.025  	934.457
950.248  	737.55
952.468     	82.0761
954.684    	122.19
956.897   	729.056
959.106  	792.711
961.311  	336.957
963.513   	524.534
965.712   	537.355
967.906   	254.048
970.098  	659.96
972.285  	1045.14
974.469   	69.0534
976.649   	243.263
978.826  	698.246
980.999  	687.615
983.168       	1019.87
985.333    	66.8824
987.495  	-80.0757
989.654  	459.281
991.808    	163.327
993.959      	609.908
996.106  	402.473
998.249  	345.558
1000.39 	605.645
1002.53 	631.216
1004.66 	549.103
1006.79 	601.381
1008.91      	612.039
1011.03  	566.183
1013.15 	601.381
1015.26 	206.564
1017.37  	40.8161
1019.48       	451.784
1021.58  	206.564
1023.68  	633.346
1025.77  	890.09
1027.86  	689.742
1029.95 	352.007
1032.03    	897.488
1034.11  	941.847
1036.18   	358.454
1038.26  	495.669
1040.32 	490.32
1042.39    	1129.26
1044.45  	399.254
1045.55 	1222.62

File: Spectra_output_0_1743438229.txt
Wavelength [nm]    	Intensity [counts]
344.912	-184.871
347.743   	54.0695
350.574  	-113.72
353.402 	-53.6715
356.229 	72.5267
359.054  	-17.7088
361.878	-6.8208
364.7	-6.8208
367.52    	94.2249
370.339	83.378
373.155	66.0139
375.97   	17.117
378.784 	92.0559
381.596	67.0994
384.405	4.06273
387.214 	42.1199
390.02  	135.404
392.825  	103.983
395.628 	-49.3097
398.429	13.8541
401.228   	86.6325
404.026    	129.989
406.822  	187.332
409.616	-80.9491
412.408	-90.7761
415.198	-64.579
417.987	54.0695
420.773	-15.5309
423.558 	-52.5809
426.341 	31.252
429.122 	-43.8585
431.901  	64.9282
434.679  	-87.5
437.454	-16.6198
440.228	18.2046
443 	-71.1258
445.769	31.252
448.537	45.3794
451.303	43.2065
454.067  	165.707
456.829	13.8541
459.589	-1.37847
462.347	-28.6014
465.103  	-35.1391
467.858  	80.1231
470.61  	-10.0867
473.36 	32.339
476.108	165.707
478.854 	52.9834
481.598 	-64.579
484.341   	41.0333
487.081  	85.5477
489.819  	93.1404
492.555 	21.4671
495.289  	90.9713
498.021 	7.32691
500.75  	-127.934
503.478 	93.1404
506.204	-25.3331
508.927    	-27.5119
511.649   	-52.5809
514.368 	27.9907
517.085 	84.4629
519.8  	58.4135
522.513  	211.1
525.224   	47.5522
527.932 	113.738
530.639   	0.798142
533.343  	66.0139
536.045 	7.32691
538.745     	114.822
541.443 	54.0695
544.138  	5.15083
546.832    	-68.9434
549.523 	-148.723
552.211    	10.5907
554.898  	-12.2642
557.582  	49.7248
560.264 	98.5625
562.944 	32.339
565.622   	62.7569
568.297   	-2.46685
570.97  	-25.3331
573.641  	82.2931
576.309 	-42.7684
578.975  	43.2065
581.639 	42.1199
584.3  	17.117
586.959    	-64.579
589.616     	80.1231
592.271  	-120.28
594.923   	-38.4085
597.572      	34.5128
600.22  	-91.8682
602.865   	-53.6715
605.507  	101.815
608.147  	-85.3161
610.785  	72.5267
613.42  	-44.9487
616.053 	-153.102
618.683   	11.6785
621.311   	-41.6784
623.937 	22.5545
626.56 	92.0559
629.18 	-32.9596
631.799   	62.7569
634.414 	20.3796
637.027       	69.2705
639.638  	74.6973
642.246  	-37.3187
644.852   	-5.73224
647.455 	31.252
650.055 	110.487
652.654 	-23.1545
655.249     	6.2389
657.842  	29.0779
660.432  	-84.2243
663.02    	154.888
665.605   	52.9834
668.188  	68.185
670.768 	50.8111
673.345  	-79.8574
675.92 	86.6325
678.492  	20.3796
681.062  	13.8541
683.629  	-22.0653
686.193  	-30.7804
688.755   	-51.4905
691.314  	-95.1448
693.87   	33.4259
696.423  	343.623
698.974   	-6.8208
701.523  	224.056
704.068   	36.6865
706.611    	492.674
709.151  	139.735
711.688 	-65.6701
714.223   	20.3796
716.755 	19.2921
719.284   	22.5545
721.81   	-62.3972
724.334  	92.0559
726.855 	49.7248
729.373 	-24.2438
731.888   	-2.46685
734.4      	68.185
736.91  	2.97458
739.417  	176.522
741.921  	45.3794
744.422  	54.0695
746.92  	127.823
749.416   	109.403
751.908  	2735.67
754.398  	19.2921
756.885 	47.5522
759.369   	-36.2288
761.85  	-20.9761
764.328         	986.362
766.803   	34.5128
769.276 	10.5907
771.745  	63.8426
774.212  	-80.9491
776.675    	56.2416
779.136   	118.073
781.594  	-12.2642
784.048    	6.2389
786.5 	107.236
788.949 	63.8426
791.395       	37.7733
793.837  	-41.6784
796.277   	36.6865
798.714 	-75.4912
801.148  	879.73
803.578  	86.6325
806.006      	146.23
808.43   	-11.1755
810.852    	2409.75
813.271     	38.86
815.686  	120.24
818.098  	42.1199
820.508   	180.846
822.914  	-29.6909
825.317  	-58.0339
827.717  	27.9907
830.114   	20.3796
832.507  	-94.0526
834.898  	-64.579
837.285 	26.9036
839.669 	-72.2171
842.051 	2381.07
844.429 	61.6711
846.803  	-70.0346
849.175  	59.4994
851.543 	79.038
853.908   	9.50281
856.27  	-52.5809
858.629   	51.8973
860.985  	137.57
863.337  	32.339
865.686    	59.4994
868.032   	106.152
870.375    	42.1199
872.714  	26.9036
875.05     	-26.4225
877.382  	60.5853
879.712     	-19.887
882.038     	6.2389
884.361    	11.6785
886.68   	131.072
888.997    	-2.46685
891.309  	-12.2642
893.619  	18.2046
895.925  	95.3094
898.228    	-8.99804
900.527  	122.407
902.823   	-7.9094
905.116     	35.5997
907.406   	63.8426
909.692  	-64.579
911.974  	33.4259
914.253  	19.2921
916.529    	56.2416
918.801   	133.238
921.07    	59.4994
923.335   	-6.8208
925.597    	-12.2642
927.856  	-48.2194
930.111   	60.5853
932.362   	75.7826
934.61   	-55.8526
936.855  	-46.0389
939.096      	128.906
941.333  	58.4135
943.567   	-30.7804
945.798   	1.88638
948.025  	131.072
950.248  	64.9282
952.468     	-25.3331
954.684    	-37.3187
956.897   	-25.3331
959.106  	-5.73224
961.311  	-14.4419
963.513   	-50.4001
965.712   	4.06273
967.906   	-50.4001
970.098  	96.3938
972.285  	132.155
974.469   	-5.73224
976.649   	-58.0339
978.826  	-35.1391
980.999  	61.6711
983.168       	81.2081
985.333    	-42.7684
987.495  	-66.7611
989.654  	-37.3187
991.808    	2.97458
993.959      	49.7248
996.106  	25.8164
998.249  	11.6785
1000.39 	46.4659
1002.53 	35.5997
1004.66 	79.038
1006.79 	6.2389
1008.91      	2.97458
1011.03  	131.072
1013.15 	85.5477
1015.26 	-139.968
1017.37  	16.0294
1019.48       	-6.8208
1021.58  	-32.9596
1023.68  	126.74
1025.77  	58.4135
1027.86  	79.038
1029.95 	102.899
1032.03    	154.888
1034.11  	58.4135
1036.18   	-114.814
1038.26  	-63.4881
1040.32 	-42.7684
1042.39    	51.8973
1044.45  	81.2081
1045.55 	68.185